Folder: Fuel_cell_testing

Note: README.md
# Fuel_cell_testing
ECLab and Matlab code use to perform the fuel cell characterization and extract the main properties.

File: 2022_03_24_eis_3electrode_qv_20each_02_GEIS_02_GEIS_C01.mpt
EC-Lab ASCII FILE
Nb header lines : 67

Galvano Electrochemical Impedance Spectroscopy

Run on channel : 1 (SN 12113)
User :
Electrode connection : standard
Ewe ctrl range : min = -1.00 V. max = 1.00 V
Ewe.I filtering : 50 kHz
Safety Limits :
	Do not start on E overload
Channel : Grounded
Acquisition started on : 03/24/2022 15:24:52
Technique started on : 03/24/2022 15:25:13
Saved on :
	File : 2022_03_24_eis_3electrode_qv_20each_02_GEIS_02_GEIS_C01.mpr
	Directory : D:\Marine_Garcia\2022_03_24_titane_platine_verre_KMnO4\
	Host : 169.254.124.191
Device : SP-300 (SN 1409)
Address : USB
EC-Lab for windows v11.33 (software)
Internet server v11.32 (firmware)
Command interpretor v11.33 (firmware)
Electrode material :
Initial state :
Electrolyte :
Comments :
Cable : standard
Electrode surface area : 0.001 cm?
Characteristic mass : 0.001 g
Equivalent Weight : 0.000 g/eq.
Density : 0.000 g/cm3
Record Ece
Cycle Definition : Charge/Discharge alternance
Mode                Single sine
Is                  -0.020
unit Is             mA
vs.                 <None>
tIs (h:m:s)         0:01:0.0000
record              1
dE (mV)             0.000
dt (s)              1.000
fi                  100.000
unit fi             kHz
ff                  100.000
unit ff             mHz
Nd                  6
Points              per decade
spacing             Logarithmic
Ia/Va               Ia
Ia                  2.000
unit  Ia            ?A
va pourcent         0.10
pw                  0.10
Na                  2
corr                0
E range min (V)     -1.000
E range max (V)     1.000
I Range             100 ?A
Bandwidth           8
nc cycles           0
goto Ns'            0
nr cycles           0
inc. cycle          0

freq/Hz	Re(Z)/Ohm	#NOM?	|Z|/Ohm	Phase(Z)/deg	time/s	<Ewe>/V	<I>/mA	Cs/?F	Cp/?F	cycle number	|Ewe|/V	|I|/A	I Range	(Q-Qo)/mA.h	<Ece>/V	|Ece|/V	Phase(Zce)/deg	|Zce|/Ohm	Re(Zce)/Ohm	#NOM?	Phase(Zwe-ce)/deg	|Zwe-ce|/Ohm	Re(Zwe-ce)/Ohm	#NOM?	Re(Y)/Ohm-1	Im(Y)/Ohm-1	|Y|/Ohm-1	Phase(Y)/deg	dq/mA.h
0.00E+00	0.00E+00	0.00E+00	0.00E+00	0.00E+00	2.13E+01	7.12E-01	-2.00E-02	0.00E+00	0.00E+00	1.00E+00	0.00E+00	0.00E+00	41	-5.26E-06	-3.17E-01	0.00E+00	0.00E+00	0.00E+00	0.00E+00	0.00E+00	0.00E+00	0.00E+00	0.00E+00	0.00E+00	0.00E+00	0.00E+00	0.00E+00	0.00E+00	-5.26E-06
0.00E+00	0.00E+00	0.00E+00	0.00E+00	0.00E+00	2.43E+01	6.90E-01	-2.00E-02	0.00E+00	0.00E+00	1.00E+00	0.00E+00	0.00E+00	41	-2.02E-05	-3.28E-01	0.00E+00	0.00E+00	0.00E+00	0.00E+00	0.00E+00	0.00E+00	0.00E+00	0.00E+00	0.00E+00	0.00E+00	0.00E+00	0.00E+00	0.00E+00	-4.96E-06
0.00E+00	0.00E+00	0.00E+00	0.00E+00	0.00E+00	2.73E+01	6.86E-01	-2.00E-02	0.00E+00	0.00E+00	1.00E+00	0.00E+00	0.00E+00	41	-3.56E-05	-3.32E-01	0.00E+00	0.00E+00	0.00E+00	0.00E+00	0.00E+00	0.00E+00	0.00E+00	0.00E+00	0.00E+00	0.00E+00	0.00E+00	0.00E+00	0.00E+00	-5.16E-06
0.00E+00	0.00E+00	0.00E+00	0.00E+00	0.00E+00	3.03E+01	6.83E-01	-2.00E-02	0.00E+00	0.00E+00	1.00E+00	0.00E+00	0.00E+00	41	-5.07E-05	-3.38E-01	0.00E+00	0.00E+00	0.00E+00	0.00E+00	0.00E+00	0.00E+00	0.00E+00	0.00E+00	0.00E+00	0.00E+00	0.00E+00	0.00E+00	0.00E+00	-5.13E-06
0.00E+00	0.00E+00	0.00E+00	0.00E+00	0.00E+00	3.33E+01	6.81E-01	-2.00E-02	0.00E+00	0.00E+00	1.00E+00	0.00E+00	0.00E+00	41	-6.56E-05	-3.39E-01	0.00E+00	0.00E+00	0.00E+00	0.00E+00	0.00E+00	0.00E+00	0.00E+00	0.00E+00	0.00E+00	0.00E+00	0.00E+00	0.00E+00	0.00E+00	-4.99E-06
0.00E+00	0.00E+00	0.00E+00	0.00E+00	0.00E+00	3.63E+01	6.79E-01	-2.00E-02	0.00E+00	0.00E+00	1.00E+00	0.00E+00	0.00E+00	41	-8.08E-05	-3.38E-01	0.00E+00	0.00E+00	0.00E+00	0.00E+00	0.00E+00	0.00E+00	0.00E+00	0.00E+00	0.00E+00	0.00E+00	0.00E+00	0.00E+00	0.00E+00	-4.98E-06
0.00E+00	0.00E+00	0.00E+00	0.00E+00	0.00E+00	3.93E+01	6.78E-01	-2.00E-02	0.00E+00	0.00E+00	1.00E+00	0.00E+00	0.00E+00	41	-9.57E-05	-3.39E-01	0.00E+00	0.00E+00	0.00E+00	0.00E+00	0.00E+00	0.00E+00	0.00E+00	0.00E+00	0.00E+00	0.00E+00	0.00E+00	0.00E+00	0.00E+00	-4.97E-06
0.00E+00	0.00E+00	0.00E+00	0.00E+00	0.00E+00	4.23E+01	6.76E-01	-2.00E-02	0.00E+00	0.00E+00	1.00E+00	0.00E+00	0.00E+00	41	-1.11E-04	-3.41E-01	0.00E+00	0.00E+00	0.00E+00	0.00E+00	0.00E+00	0.00E+00	0.00E+00	0.00E+00	0.00E+00	0.00E+00	0.00E+00	0.00E+00	0.00E+00	-5.01E-06
0.00E+00	0.00E+00	0.00E+00	0.00E+00	0.00E+00	4.53E+01	6.77E-01	-2.00E-02	0.00E+00	0.00E+00	1.00E+00	0.00E+00	0.00E+00	41	-1.27E-04	-3.38E-01	0.00E+00	0.00E+00	0.00E+00	0.00E+00	0.00E+00	0.00E+00	0.00E+00	0.00E+00	0.00E+00	0.00E+00	0.00E+00	0.00E+00	0.00E+00	-5.23E-06
0.00E+00	0.00E+00	0.00E+00	0.00E+00	0.00E+00	4.83E+01	6.75E-01	-2.00E-02	0.00E+00	0.00E+00	1.00E+00	0.00E+00	0.00E+00	41	-1.42E-04	-3.44E-01	0.00E+00	0.00E+00	0.00E+00	0.00E+00	0.00E+00	0.00E+00	0.00E+00	0.00E+00	0.00E+00	0.00E+00	0.00E+00	0.00E+00	0.00E+00	-4.95E-06
0.00E+00	0.00E+00	0.00E+00	0.00E+00	0.00E+00	5.13E+01	6.77E-01	-2.00E-02	0.00E+00	0.00E+00	1.00E+00	0.00E+00	0.00E+00	41	-1.57E-04	-3.38E-01	0.00E+00	0.00E+00	0.00E+00	0.00E+00	0.00E+00	0.00E+00	0.00E+00	0.00E+00	0.00E+00	0.00E+00	0.00E+00	0.00E+00	0.00E+00	-5.10E-06
0.00E+00	0.00E+00	0.00E+00	0.00E+00	0.00E+00	5.43E+01	6.76E-01	-2.00E-02	0.00E+00	0.00E+00	1.00E+00	0.00E+00	0.00E+00	41	-1.72E-04	-3.43E-01	0.00E+00	0.00E+00	0.00E+00	0.00E+00	0.00E+00	0.00E+00	0.00E+00	0.00E+00	0.00E+00	0.00E+00	0.00E+00	0.00E+00	0.00E+00	-4.99E-06
0.00E+00	0.00E+00	0.00E+00	0.00E+00	0.00E+00	5.73E+01	6.75E-01	-2.00E-02	0.00E+00	0.00E+00	1.00E+00	0.00E+00	0.00E+00	41	-1.87E-04	-3.40E-01	0.00E+00	0.00E+00	0.00E+00	0.00E+00	0.00E+00	0.00E+00	0.00E+00	0.00E+00	0.00E+00	0.00E+00	0.00E+00	0.00E+00	0.00E+00	-4.99E-06
0.00E+00	0.00E+00	0.00E+00	0.00E+00	0.00E+00	6.03E+01	6.74E-01	-2.00E-02	0.00E+00	0.00E+00	1.00E+00	0.00E+00	0.00E+00	41	-2.02E-04	-3.43E-01	0.00E+00	0.00E+00	0.00E+00	0.00E+00	0.00E+00	0.00E+00	0.00E+00	0.00E+00	0.00E+00	0.00E+00	0.00E+00	0.00E+00	0.00E+00	-4.96E-06
0.00E+00	0.00E+00	0.00E+00	0.00E+00	0.00E+00	6.33E+01	6.74E-01	-2.00E-02	0.00E+00	0.00E+00	1.00E+00	0.00E+00	0.00E+00	41	-2.17E-04	-3.42E-01	0.00E+00	0.00E+00	0.00E+00	0.00E+00	0.00E+00	0.00E+00	0.00E+00	0.00E+00	0.00E+00	0.00E+00	0.00E+00	0.00E+00	0.00E+00	-5.01E-06
0.00E+00	0.00E+00	0.00E+00	0.00E+00	0.00E+00	6.63E+01	6.75E-01	-2.00E-02	0.00E+00	0.00E+00	1.00E+00	0.00E+00	0.00E+00	41	-2.33E-04	-3.38E-01	0.00E+00	0.00E+00	0.00E+00	0.00E+00	0.00E+00	0.00E+00	0.00E+00	0.00E+00	0.00E+00	0.00E+00	0.00E+00	0.00E+00	0.00E+00	-5.22E-06
0.00E+00	0.00E+00	0.00E+00	0.00E+00	0.00E+00	6.93E+01	6.73E-01	-2.00E-02	0.00E+00	0.00E+00	1.00E+00	0.00E+00	0.00E+00	41	-2.48E-04	-3.42E-01	0.00E+00	0.00E+00	0.00E+00	0.00E+00	0.00E+00	0.00E+00	0.00E+00	0.00E+00	0.00E+00	0.00E+00	0.00E+00	0.00E+00	0.00E+00	-5.00E-06
0.00E+00	0.00E+00	0.00E+00	0.00E+00	0.00E+00	7.23E+01	6.75E-01	-2.00E-02	0.00E+00	0.00E+00	1.00E+00	0.00E+00	0.00E+00	41	-2.63E-04	-3.43E-01	0.00E+00	0.00E+00	0.00E+00	0.00E+00	0.00E+00	0.00E+00	0.00E+00	0.00E+00	0.00E+00	0.00E+00	0.00E+00	0.00E+00	0.00E+00	-5.10E-06
0.00E+00	0.00E+00	0.00E+00	0.00E+00	0.00E+00	7.53E+01	6.75E-01	-2.00E-02	0.00E+00	0.00E+00	1.00E+00	0.00E+00	0.00E+00	41	-2.78E-04	-3.41E-01	0.00E+00	0.00E+00	0.00E+00	0.00E+00	0.00E+00	0.00E+00	0.00E+00	0.00E+00	0.00E+00	0.00E+00	0.00E+00	0.00E+00	0.00E+00	-4.93E-06
0.00E+00	0.00E+00	0.00E+00	0.00E+00	0.00E+00	7.83E+01	6.72E-01	-2.00E-02	0.00E+00	0.00E+00	1.00E+00	0.00E+00	0.00E+00	41	-2.93E-04	-3.45E-01	0.00E+00	0.00E+00	0.00E+00	0.00E+00	0.00E+00	0.00E+00	0.00E+00	0.00E+00	0.00E+00	0.00E+00	0.00E+00	0.00E+00	0.00E+00	-5.02E-06
6.74E+04	3.04E+03	7.92E+01	3.04E+03	-1.49E+00	8.08E+01	6.73E-01	-2.00E-02	2.98E-02	2.03E-05	1.00E+00	5.94E-03	1.96E-06	41	-3.06E-04	-3.44E-01	1.56E-02	1.50E+02	7.95E+03	-6.86E+03	-4.02E+03	1.34E+02	5.49E+03	-3.82E+03	-3.94E+03	3.29E-04	8.59E-06	3.29E-04	1.49E+00	-1.39E-06
2.06E+04	2.99E+03	8.44E+01	2.99E+03	-1.62E+00	8.17E+01	6.74E-01	-2.00E-02	9.15E-02	7.29E-05	1.00E+00	5.58E-03	1.87E-06	41	-3.11E-04	-3.44E-01	1.76E-02	1.75E+02	9.44E+03	-9.41E+03	-7.62E+02	1.74E+02	6.46E+03	-6.42E+03	-6.77E+02	3.34E-04	9.45E-06	3.35E-04	1.62E+00	-1.40E-06
6.31E+03	3.03E+03	1.81E+02	3.04E+03	-3.42E+00	8.26E+01	6.75E-01	-2.00E-02	1.39E-01	4.95E-04	1.00E+00	6.29E-03	2.07E-06	41	-3.16E-04	-3.37E-01	1.72E-02	-1.62E+02	8.31E+03	-7.90E+03	2.55E+03	-1.51E+02	5.59E+03	-4.87E+03	2.73E+03	3.29E-04	1.96E-05	3.29E-04	3.42E+00	-1.39E-06
1.93E+03	3.20E+03	3.81E+02	3.22E+03	-6.80E+00	8.37E+01	6.74E-01	-2.00E-02	2.16E-01	3.03E-03	1.00E+00	6.67E-03	2.07E-06	41	-3.22E-04	-3.37E-01	1.02E-02	-1.53E+02	4.91E+03	-4.36E+03	2.26E+03	-1.14E+02	2.89E+03	-1.16E+03	2.64E+03	3.08E-04	3.68E-05	3.11E-04	6.80E+00	-2.45E-06
5.91E+02	3.59E+03	6.78E+02	3.66E+03	-1.07E+01	8.51E+01	6.73E-01	-2.00E-02	3.97E-01	1.37E-02	1.00E+00	7.57E-03	2.07E-06	41	-3.30E-04	-3.49E-01	7.38E-03	-1.75E+02	3.56E+03	-3.55E+03	3.03E+02	-8.76E+01	9.82E+02	4.06E+01	9.81E+02	2.69E-04	5.07E-05	2.74E-04	1.07E+01	-2.45E-06
1.81E+02	4.13E+03	1.18E+03	4.30E+03	-1.60E+01	8.64E+01	6.74E-01	-2.00E-02	7.43E-01	5.65E-02	1.00E+00	8.90E-03	2.07E-06	41	-3.37E-04	-3.44E-01	8.29E-03	1.70E+02	4.00E+03	-3.94E+03	-7.02E+02	-6.85E+01	5.19E+02	1.90E+02	4.83E+02	2.24E-04	6.42E-05	2.33E-04	1.60E+01	-2.44E-06
5.53E+01	5.11E+03	2.06E+03	5.51E+03	-2.20E+01	8.77E+01	6.74E-01	-2.00E-02	1.40E+00	1.96E-01	1.00E+00	1.14E-02	2.07E-06	41	-3.44E-04	-3.48E-01	1.02E-02	1.63E+02	4.92E+03	-4.69E+03	-1.48E+03	-5.50E+01	7.16E+02	4.11E+02	5.86E+02	1.68E-04	6.80E-05	1.82E-04	2.20E+01	-2.44E-06
1.69E+01	7.38E+03	3.28E+03	8.08E+03	-2.40E+01	8.90E+01	6.73E-01	-2.00E-02	2.86E+00	4.74E-01	1.00E+00	1.67E-02	2.07E-06	41	-3.51E-04	-3.47E-01	1.43E-02	1.58E+02	6.90E+03	-6.39E+03	-2.58E+03	-3.54E+01	1.21E+03	9.84E+02	7.00E+02	1.13E-04	5.04E-05	1.24E-04	2.40E+01	-2.18E-06
5.18E+00	1.04E+04	3.13E+03	1.09E+04	-1.67E+01	9.04E+01	6.74E-01	-2.00E-02	9.80E+00	8.11E-01	1.00E+00	2.26E-02	2.07E-06	41	-3.59E-04	-3.63E-01	1.91E-02	1.64E+02	9.20E+03	-8.84E+03	-2.56E+03	-1.99E+01	1.70E+03	1.60E+03	5.79E+02	8.79E-05	2.64E-05	9.18E-05	1.67E+01	-2.39E-06
1.58E+00	1.25E+04	2.31E+03	1.27E+04	-1.05E+01	9.33E+01	6.73E-01	-2.00E-02	4.35E+01	1.44E+00	1.00E+00	2.63E-02	2.07E-06	41	-3.75E-04	-3.20E-01	2.25E-02	1.70E+02	1.09E+04	-1.07E+04	-1.92E+03	-1.21E+01	1.85E+03	1.81E+03	3.89E+02	7.74E-05	1.43E-05	7.87E-05	1.05E+01	-7.44E-06
4.85E-01	1.41E+04	1.91E+03	1.42E+04	-7.72E+00	1.03E+02	6.73E-01	-2.00E-02	1.72E+02	3.10E+00	1.00E+00	2.94E-02	2.07E-06	41	-4.26E-04	-3.58E-01	2.53E-02	1.73E+02	1.22E+04	-1.21E+04	-1.48E+03	-1.23E+01	2.02E+03	1.97E+03	4.31E+02	6.98E-05	9.45E-06	7.04E-05	7.72E+00	-2.42E-05
1.48E-01	1.57E+04	1.74E+03	1.58E+04	-6.35E+00	1.33E+02	6.71E-01	-2.00E-02	6.15E+02	7.52E+00	1.00E+00	3.27E-02	2.07E-06	41	-5.95E-04	-3.54E-01	2.76E-02	1.74E+02	1.33E+04	-1.32E+04	-1.47E+03	-6.29E+00	2.46E+03	2.45E+03	2.70E+02	6.30E-05	7.01E-06	6.34E-05	6.35E+00	-7.91E-05
1.00E-01	1.64E+04	1.65E+03	1.65E+04	-5.74E+00	1.54E+02	6.70E-01	-2.00E-02	9.63E+02	9.63E+00	1.00E+00	3.42E-02	2.07E-06	41	-7.12E-04	-3.34E-01	2.91E-02	1.74E+02	1.40E+04	-1.40E+04	-1.46E+03	-4.32E+00	2.49E+03	2.49E+03	1.88E+02	6.02E-05	6.05E-06	6.05E-05	5.74E+00	-1.17E-04